Folder: UCLA/machine_learning/hw2

File: Concrete_Data.csv
Cement (%),Slag (%),Fly ash (%),Coarse aggregate (%),Fine aggregate (%),W/CM,Superplasticizer dosage,Age (days),Compressive strength (MPa)
23.9362,0,0,46.0993,29.9645,0.3,0.00462963,28,79.99
18.9905,4.74763,0,46.5767,29.6852,0.48,0,365,43.7
21.3643,2.37381,0,46.5767,29.6852,0.48,0,270,43.01
18.9905,4.74763,0,46.5767,29.6852,0.48,0,90,40.56
19.1726,0,0,47.0232,33.8042,0.6,0,365,52.52
15.338,3.83451,0,47.0232,33.8042,0.6,0,365,55.26
11.8691,11.8691,0,46.5767,29.6852,0.48,0,28,30.08
11.8691,11.8691,0,46.5767,29.6852,0.48,0,365,39
11.8691,11.8691,0,46.5767,29.6852,0.48,0,7,26.26
6.3371,9.50565,0,47.5283,36.629,0.550143,0,7,14.59
15.338,3.83451,0,47.0232,33.8042,0.6,0,270,54.38
6.3371,9.50565,0,47.5283,36.629,0.550143,0,360,44.7
18.7183,4.68179,0,37.5292,39.0707,0.288914,0.0310559,3,33.4
17.1681,4.28982,0,37.6452,40.8968,0.325098,0.0249125,3,28.1
14.653,12.8016,0,42.6735,29.8719,0.30305,0.0169827,3,28.3
17.1054,8.29166,0,41.4451,33.1578,0.25203,0.0380031,3,40.6
18.7142,4.68076,0,41.2153,35.3897,0.284961,0.03500847,7,46.8
23.3323,0,0,37.4204,39.2473,0.266893,0.0530774,7,46.9
16.7181,6.66079,0,49.9692,26.652,0.289994,0.02996043,7,47.1
16.1005,8.39217,0,41.9475,33.5598,0.298949,0.0210297,7,22.9
16.2092,4.05446,0,36.8316,42.9047,0.270051,0.0499147,28,56.7
18.7183,4.68179,0,37.5292,39.0707,0.288914,0.0310559,28,60.29
16.1005,8.39217,0,41.9475,33.5598,0.298949,0.0210297,28,71.3
15.1702,8.48523,0,42.4127,33.9319,0.331942,0.01803,28,49.9
21.3253,5.33357,0,38.2554,35.0858,0.304985,0.0149882,56,72.3
14.0825,9.38687,0,37.6403,38.8904,0.293055,0.0269151,56,66.1
12.4722,8.75191,0,43.7639,35.012,0.297003,0.0229885,56,72.99
16.6518,8.42386,0,41.2333,33.691,0.302024,0.0179332,91,64.9
20.581,5.14306,0,37.3925,36.8834,0.235073,0.0549301,91,70.7
17.5046,4.12564,0,41.2477,37.1221,0.296878,0.0229607,91,75.5
19.875,8.0134,0,40.0625,32.0491,0.301948,0.0180195,91,73.3
10.3115,0,4.48287,44.8463,40.3593,0.59333,0.0139799,28,24.89
10.9894,0,4.44541,44.5123,40.0528,0.602607,0.0139072,56,27.66
8.81903,0,4.55357,45.59,41.0374,0.561043,0.0253388,100,37.34
9.77006,0,5.60303,48.7236,35.9033,0.540352,0.0170518,3,12.47
10.765,0,5.53816,48.1868,35.51,0.561244,0.0132939,14,20.08
8.62747,0,5.67398,49.3199,36.3787,0.512963,0.0313134,28,28.47
7.6608,0,7.53073,48.8273,35.9812,0.535766,0.0136325,56,28.63
7.59038,1.90177,7.40418,47.8472,35.2565,0.325657,0.0152998,100,39.23
9.77028,4.48201,1.12073,48.7234,35.9036,0.540346,0.01977166,3,13.18
10.7651,0,5.53814,48.1868,35.51,0.561264,0.017623,14,22.32
11.1809,0,4.42022,44.616,39.7829,0.561958,0.0210742,28,30.23
11.5542,0,4.42248,44.2229,39.8004,0.542162,0.015997,56,38.33
9.55455,0,4.51247,45.309,40.6239,0.509189,0.0278373,100,42.92
9.54216,0,5.61637,48.854,35.9874,0.472118,0.0232793,3,19.52
10.5908,0,5.55794,48.2767,35.5746,0.492289,0.0190169,14,26.77
11.6603,0,5.48621,47.7045,35.1489,0.50982,0.0155557,28,29.65
11.6603,0,5.48621,47.7045,35.1489,0.50982,0.0171789,56,36.64
8.31336,0,7.65472,48.3823,35.6496,0.486782,0.0216998,100,45.37
7.63368,1.90842,5.61633,48.8541,35.9874,0.472134,0.0322946,3,7.4
13.1219,0,4.34671,43.439,39.0923,0.434843,0.0243448,14,34.67
12.4576,0,4.37915,43.7915,39.3718,0.428907,0.0315938,28,48.28
13.4067,0,4.33606,43.3035,38.9538,0.438329,0.0226651,56,48.72
11.1543,0,4.427,44.5624,39.8563,0.415466,0.0351102,100,45.37
11.3254,0,4.43256,44.3373,39.9048,0.416595,0.0403635,3,21.78
10.9236,0,5.53549,48.097,35.4439,0.385308,0.032239,14,42.22
12.3487,0,5.44776,47.2992,34.9043,0.402301,0.0249735,28,51.33
13.5631,0,5.3648,46.6829,34.3892,0.42151,0.0229564,56,51.96
9.63518,0,7.8771,47.4907,34.997,0.39845,0.0261532,100,50.08
12.3545,4.3599,1.0902,47.3206,34.8747,0.402283,0.0280121,3,30.45
9.63479,2.41234,5.46485,47.4919,34.9962,0.354847,0.0300265,14,35.96
9.83313,2.46171,5.57729,46.4111,35.7168,0.398449,0.0246038,28,52.2
9.87327,0,5.60004,48.6648,35.8618,0.462097,0.033034,56,37.27
17.5548,0,0,46.8518,35.5934,0.570745,0,100,43.06
24.3511,0,0,37.8008,37.848,0.313953,0.0158915,28,41.37
20.1144,2.23444,0,50.248,27.4031,0.39992,0.0059988,28,39.38
24.3511,0,0,37.8008,37.848,0.313953,0.0160078,28,41.37
13.0078,8.67184,0,47.0561,31.2643,0.343158,0.016,28,53.58
8.16453,5.95268,5.43904,46.1952,34.2486,0.421968,0.008371831,3,20.73
8.67777,0,5.70707,49.1926,36.4226,0.528049,0.0313134,3,12.55
7.57576,5.89991,6.0652,46.18,34.2792,0.411325,0.018985,14,33.09
7.96972,4.2813,7.3319,46.1832,34.2339,0.403531,0.0227826,14,29.55
7.44891,0.000902898,6.48145,45.3977,40.671,0.530834,0,28,26.2
7.63673,3.44796,7.63673,46.0627,35.2158,0.40066,0.019321,28,41.41
11.597,0,5.45642,48.1467,34.7998,0.521967,0.0155557,28,33.27
7.8996,2.27829,7.89915,45.8026,36.1204,0.414912,0.0162923,56,53.77
8.86925,0,4.5795,45.467,41.0843,0.576457,0.0253388,56,43.39
7.76116,0.61277,7.76071,45.3072,38.5582,0.437437,0.0115526,100,37.68
9.69027,0,7.90835,47.3666,35.0348,0.41061,0.0300717,100,52.96
20.018,1.0772,3.54578,43.4022,31.9569,0.295082,0.0187614,28,53.39
20.018,1.0772,3.54578,43.4022,31.9569,0.295082,0.0212022,7,39.3
16.944,0.875657,4.11559,41.0683,36.9965,0.313373,0.0278044,28,46.68
16.944,0.875657,4.11559,41.0683,36.9965,0.313373,0.0278044,7,45.9
15.3746,0.822867,4.20095,41.8796,37.722,0.307856,0.0260085,28,55.45
22.721,1.20315,5.69181,38.0379,32.3461,0.3140625,0.006140625,3,29.55
19.7209,1.02326,6.13953,38.2326,34.8837,0.307958,0.01467128,7,39
9.63281,0.524559,6.72389,44.9213,38.1974,0.581921,0.004858757,3,9.85
13.6342,0.720115,6.76908,40.4225,38.4542,0.406818,0.0124091,56,44.52
15.8709,0.839965,6.23342,41.6446,35.4111,0.296724,0.0210212,7,38.61
18.5447,0,0,44.3847,37.0706,0.48855,0,3,19.2
22.5522,0,0,43.9861,33.4618,0.4,0,3,24.4
15.806,0,0,44.1997,39.9943,0.576577,0,28,31.97
7.31157,10.9674,0,47.912,33.8091,0.467758,0,7,9.62
12.5057,8.33868,0,46.4106,32.745,0.408401,0,7,19.77
7.31157,10.9674,0,47.912,33.8091,0.467758,0,28,21.07
13.7167,0,0,50.6098,35.6735,0.627789,0,28,25.22
15.6841,0,0,49.4382,34.8777,0.547465,0,7,21.18
8.20051,7.48784,0,49.4342,34.8774,0.569982,0,28,25.73
8.62836,5.7507,0,50.2039,35.4171,0.598453,0,7,8
14.4134,9.60741,0,44.5488,31.4304,0.352506,0,7,24.44
16.2356,0,0,46.3602,37.4042,0.581121,0,14,27.04
11.2973,0,0,46.338,42.3648,0.822034,0,14,12.84
13.1842,0,0,46.0733,40.7425,0.689531,0,28,25.97
12.1823,0,0,46.4269,41.3909,0.779528,0,90,26.94
14.7101,0,0,46.3824,38.9075,0.628664,0,28,27.53
10.3639,0,0,51.2667,38.3694,0.804444,0,28,17.34
13.8249,0,0,49.5392,36.6359,0.613333,0,28,26.85
11.5207,0,0,50.6912,37.788,0.728,0,28,20.87
6.81424,10.2238,0,46.8654,36.0966,0.575998,0,28,29.89
5.93762,8.90643,0,46.4064,38.7495,0.663948,0,28,24.29
5.54838,8.27474,0,43.5165,42.6604,0.66436,0,90,31.02
9.03147,13.5472,0,43.7368,33.6846,0.4,0,3,12.79
8.26723,5.54334,0,45.2451,40.9443,0.66436,0,3,6.94
13.5224,9.01493,0,43.76,33.7027,0.4,0,28,38.8
9.03147,13.5472,0,43.7368,33.6846,0.4,0,90,50.73
13.5224,9.01493,0,43.76,33.7027,0.4,0,7,23.52
8.90255,5.93503,0,46.4346,38.7278,0.663948,0,7,10.79
9.50299,6.31949,0,45.8709,38.3066,0.576577,0,7,17.17
5.54838,8.27474,0,43.5165,42.6604,0.66436,0,3,6.28
7.33426,4.88951,0,42.5675,45.2088,0.752941,0,7,8.37
9.68033,14.5229,0,45.82818,29.9686,0.399961,0,90,51.86
15.2044,0,0,47.0831,37.7124,0.58006,0,3,14.31
15.7633,0,0,47.6965,36.5402,0.550143,0,7,9.01
13.7355,0,0,50.58,35.6845,0.628378,0,7,18.91
13.0153,0,0,51.1348,35.8499,0.661922,0,7,14.5
22.3414,0,0,50.2681,27.3905,0.4,0,28,44.09
23.705,0,0,49.3854,26.9096,0.32037,0,270,74.17
16.6746,0,0,46.403,36.9223,0.58,0,180,32.72
15.5108,0,0,45.8294,38.6598,0.58006,0,180,39
16.7765,0,0,48.7923,34.4313,0.486911,0,7,11.47
11.0956,0,0,52.1212,36.7832,0.777311,0,28,17.54
15.5108,0,0,45.8294,38.6598,0.58006,0,28,31.45
15.8492,0,0,47.5477,36.6031,0.550143,0,360,42.13
22.3414,0,0,50.2681,27.3905,0.4,0,270,55.16
18.7948,0,0,44.9546,36.2506,0.48855,0,28,39.58
14.554,0,0,45.5399,39.9061,0.619355,0,7,14.99
23.1993,0,0,49.7128,27.0879,0.36,0,7,42.42
15.3626,0,0,46.4695,38.1679,0.630435,0,28,25.18
22.5583,0,0,38.7208,38.7208,0.279693,0,28,74.99
14.5608,6.71677,5.21372,42.931,30.5777,0.297872,0.0390071,28,33.69
14.2791,6.58683,0,42.1004,37.0336,0.370861,0.0220751,28,45.3
17.1509,8.76289,0,38.6129,35.4733,0.345389,0.0126582,28,65.91
14.1972,0,5.09767,41.8771,38.828,0.459259,0.0148148,28,42.64
15.1103,6.99202,0,44.6269,33.2708,0.394904,0.0169851,28,52.42
14.687,0,5.27353,43.3711,36.6683,0.518519,0.0271605,28,31.87
7.20155,6.71822,5.26825,43.1126,37.6994,0.486146,0.01511335,28,23.69
7.03614,11.0843,0,39.8554,42.0241,0.537234,0.007978723,28,33.06
6.84597,6.50367,5.03667,44.7922,36.8215,0.531915,0.018617,28,36.44
7.21698,6.83962,0,47.1698,38.7736,0.597315,0.0268456,28,19.01
6.92494,8.18402,6.92494,46.8281,31.138,0.41978,0.0175824,28,29.72
7.03895,11.1215,0,50.1642,31.6753,0.449612,0.0310078,28,37.43
12.5472,5.28302,4.10377,42.9245,35.1415,0.382796,0.0215054,28,39.42
13.2093,5.5794,4.33953,45.1121,31.7597,0.393814,0.01443299,28,43.57
7.18889,0,8.87457,40.8528,43.0838,0.623457,0.0246914,28,10.54
6.60194,9.51456,4.75728,41.1165,38.0097,0.462791,0.0139535,28,26.97
7.77126,10.2151,7.86901,41.4467,32.6979,0.379962,0.0132325,28,30.88
12.1587,4.70643,3.66968,43.7744,35.6908,0.617096,0.0149963,28,28.63
14.5755,6.74575,0,40.3443,38.3345,0.389483,0.0174558,28,40.93
7.2825,6.89721,5.37507,41.2501,39.1952,0.434201,0.01946,28,26.23
7.21571,0,8.8724,51.4484,32.4635,0.496131,0.0464286,28,13.46
13.0978,5.52045,0,44.754,36.6278,0.416894,0.017835,28,40.93
7.58192,0,6.99417,51.3004,34.1235,0.64953,0.030578,28,12.46
6.86973,8.13805,0,46.4803,38.512,0.571473,0.0106817,28,23.74
7.53252,8.92545,6.95011,42.6907,33.9012,0.401825,0.0190753,28,28.99
7.57895,0,6.99143,42.9474,42.4823,0.64953,0.030578,28,9.74
7.20387,8.45197,6.58219,44.7988,32.9632,0.357448,0.0390525,28,36.35
7.34714,11.4925,0,48.233,32.9273,0.511117,0.0161002,28,26.86
15.088,7.71073,0,40.8547,36.3466,0.392379,0.009474768,28,57.22
7.87998,9.24742,7.20118,40.7624,34.909,0.410837,0.0228467,28,35.31
6.28003,9.82444,7.65498,41.2436,34.9969,0.35823,0.0110132,28,33.31
13.4339,5.6363,0,42.2909,38.6389,0.433317,0.0170982,28,42.14
15.572,0,5.58697,39.5293,39.3118,0.447693,0.0237551,28,31.18
12.6301,4.86518,3.79048,41.8502,36.864,0.45622,0.01955879,28,32.4